# n and k values for CIGS
#
# from: Nils Reinke
#
#
# Added: Aug 10, 2009 (Michiel Boes)
#
# Column format: wavelength [nm], n, k

320.000000	1.607080	1.957460

321.000000	1.620140	1.967090

322.000000	1.633250	1.976000

323.000000	1.646360	1.984210

324.000000	1.659470	1.991720

325.000000	1.672530	1.998540

326.000000	1.685520	2.004680

327.000000	1.698410	2.010150

328.000000	1.711180	2.014960

329.000000	1.723810	2.019120

330.000000	1.736250	2.022650

331.000000	1.748490	2.025570

332.000000	1.760510	2.027890

333.000000	1.772280	2.029610

334.000000	1.783780	2.030780

335.000000	1.794990	2.031390

336.000000	1.805880	2.031470

337.000000	1.816430	2.031040

338.000000	1.826630	2.030120

339.000000	1.836460	2.028740

340.000000	1.845900	2.026910

341.000000	1.854930	2.024660

342.000000	1.863540	2.022000

343.000000	1.871720	2.018980

344.000000	1.879460	2.015600

345.000000	1.886730	2.011890

346.000000	1.893540	2.007890

347.000000	1.899880	2.003610

348.000000	1.905730	1.999080

349.000000	1.911100	1.994330

350.000000	1.915970	1.989370

351.000000	1.920350	1.984250

352.000000	1.924230	1.978970

353.000000	1.927610	1.973580

354.000000	1.930490	1.968080

355.000000	1.932870	1.962520

356.000000	1.934770	1.956900

357.000000	1.936170	1.951260

358.000000	1.937090	1.945620

359.000000	1.937520	1.940010

360.000000	1.937490	1.934440

361.000000	1.936990	1.928930

362.000000	1.936030	1.923520

363.000000	1.934630	1.918210

364.000000	1.932800	1.913040

365.000000	1.930540	1.908010

366.000000	1.927870	1.903160

367.000000	1.924800	1.898490

368.000000	1.921340	1.894020

369.000000	1.917520	1.889780

370.000000	1.913340	1.885780

371.000000	1.908820	1.882030

372.000000	1.903980	1.878550

373.000000	1.898830	1.875350

374.000000	1.893400	1.872450

375.000000	1.887700	1.869850

376.000000	1.881740	1.867570

377.000000	1.875560	1.865630

378.000000	1.869160	1.864020

379.000000	1.862570	1.862760

380.000000	1.855810	1.861860

381.000000	1.848900	1.861320

382.000000	1.841870	1.861150

383.000000	1.834730	1.861360

384.000000	1.827510	1.861940

385.000000	1.820230	1.862910

386.000000	1.812920	1.864260

387.000000	1.805590	1.865990

388.000000	1.798270	1.868100

389.000000	1.791000	1.870590

390.000000	1.783780	1.873460

391.000000	1.776640	1.876710

392.000000	1.769620	1.880320

393.000000	1.762730	1.884290

394.000000	1.756000	1.888600

395.000000	1.749450	1.893260

396.000000	1.743100	1.898240

397.000000	1.736990	1.903540

398.000000	1.731130	1.909140

399.000000	1.725550	1.915010

400.000000	1.720260	1.921150

401.000000	1.715290	1.927530

402.000000	1.710660	1.934130

403.000000	1.706380	1.940920

404.000000	1.702490	1.947880

405.000000	1.698980	1.954990

406.000000	1.695880	1.962220

407.000000	1.693200	1.969530

408.000000	1.690950	1.976890

409.000000	1.689140	1.984270

410.000000	1.687780	1.991650

411.000000	1.686870	1.998970

412.000000	1.686420	2.006210

413.000000	1.686430	2.013330

414.000000	1.686890	2.020290

415.000000	1.687800	2.027060

416.000000	1.689150	2.033590

417.000000	1.690940	2.039850

418.000000	1.693140	2.045790

419.000000	1.695730	2.051390

420.000000	1.698710	2.056600

421.000000	1.702050	2.061390

422.000000	1.705710	2.065720

423.000000	1.709680	2.069560

424.000000	1.713910	2.072880

425.000000	1.718370	2.075640

426.000000	1.723020	2.077830

427.000000	1.727830	2.079410

428.000000	1.732740	2.080370

429.000000	1.737710	2.080690

430.000000	1.742700	2.080360

431.000000	1.747650	2.079360

432.000000	1.752520	2.077690

433.000000	1.757240	2.075350

434.000000	1.761780	2.072340

435.000000	1.766080	2.068670

436.000000	1.770090	2.064350

437.000000	1.773760	2.059390

438.000000	1.777040	2.053810

439.000000	1.779880	2.047650

440.000000	1.782240	2.040920

441.000000	1.784070	2.033660

442.000000	1.785350	2.025900

443.000000	1.786020	2.017680

444.000000	1.786070	2.009050

445.000000	1.785450	2.000030

446.000000	1.784150	1.990680

447.000000	1.782140	1.981040

448.000000	1.779410	1.971160

449.000000	1.775940	1.961090

450.000000	1.771720	1.950870

451.000000	1.766750	1.940550

452.000000	1.761030	1.930180

453.000000	1.754550	1.919800

454.000000	1.747310	1.909460

455.000000	1.739340	1.899200

456.000000	1.730630	1.889060

457.000000	1.721210	1.879090

458.000000	1.711070	1.869320

459.000000	1.700250	1.859790

460.000000	1.688770	1.850540

461.000000	1.676630	1.841590

462.000000	1.663870	1.832980

463.000000	1.650510	1.824740

464.000000	1.636570	1.816890

465.000000	1.622080	1.809450

466.000000	1.607060	1.802460

467.000000	1.591550	1.795930

468.000000	1.575560	1.789870

469.000000	1.559130	1.784310

470.000000	1.542280	1.779270

471.000000	1.525040	1.774750

472.000000	1.507440	1.770760

473.000000	1.489500	1.767320

474.000000	1.471270	1.764440

475.000000	1.452750	1.762120

476.000000	1.433980	1.760370

477.000000	1.414990	1.759190

478.000000	1.395800	1.758590

479.000000	1.376440	1.758570

480.000000	1.356940	1.759130

481.000000	1.337330	1.760260

482.000000	1.317620	1.761980

483.000000	1.297840	1.764270

484.000000	1.278020	1.767130

485.000000	1.258190	1.770560

486.000000	1.238360	1.774540

487.000000	1.218570	1.779080

488.000000	1.198820	1.784160

489.000000	1.179150	1.789780

490.000000	1.159580	1.795920

491.000000	1.140120	1.802570

492.000000	1.120790	1.809730

493.000000	1.101620	1.817370

494.000000	1.082620	1.825490

495.000000	1.063800	1.834070

496.000000	1.045190	1.843090

497.000000	1.026800	1.852540

498.000000	1.008630	1.862400

499.000000	0.990710	1.872670

500.000000	0.973040	1.883310

501.000000	0.955640	1.894310

502.000000	0.938500	1.905660

503.000000	0.921650	1.917340

504.000000	0.905080	1.929330

505.000000	0.888800	1.941620

506.000000	0.872810	1.954180

507.000000	0.857130	1.967010

508.000000	0.841750	1.980080

509.000000	0.826670	1.993380

510.000000	0.811900	2.006890

511.000000	0.797430	2.020600

512.000000	0.783260	2.034500

513.000000	0.769400	2.048560

514.000000	0.755830	2.062780

515.000000	0.742570	2.077140

516.000000	0.729590	2.091640

517.000000	0.716910	2.106250

518.000000	0.704520	2.120970

519.000000	0.692410	2.135780

520.000000	0.680580	2.150680

521.000000	0.669020	2.165650

522.000000	0.657730	2.180690

523.000000	0.646710	2.195790

524.000000	0.635940	2.210940

525.000000	0.625430	2.226130

526.000000	0.615170	2.241360

527.000000	0.605140	2.256610

528.000000	0.595360	2.271880

529.000000	0.585800	2.287170

530.000000	0.576470	2.302470

531.000000	0.567360	2.317780

532.000000	0.558460	2.333080

533.000000	0.549780	2.348380

534.000000	0.541290	2.363680

535.000000	0.533010	2.378960

536.000000	0.524920	2.394220

537.000000	0.517010	2.409460

538.000000	0.509290	2.424690

539.000000	0.501740	2.439880

540.000000	0.494370	2.455050

541.000000	0.487170	2.470190

542.000000	0.480130	2.485300

543.000000	0.473250	2.500380

544.000000	0.466530	2.515420

545.000000	0.459950	2.530420

546.000000	0.453520	2.545380

547.000000	0.447240	2.560310

548.000000	0.441090	2.575190

549.000000	0.435080	2.590030

550.000000	0.429190	2.604830

551.000000	0.423440	2.619590

552.000000	0.417810	2.634300

553.000000	0.412300	2.648960

554.000000	0.406900	2.663580

555.000000	0.401620	2.678160

556.000000	0.396450	2.692680

557.000000	0.391390	2.707170

558.000000	0.386430	2.721600

559.000000	0.381580	2.735990

560.000000	0.376820	2.750320

561.000000	0.372160	2.764620

562.000000	0.367590	2.778860

563.000000	0.363120	2.793060

564.000000	0.358730	2.807210

565.000000	0.354430	2.821310

566.000000	0.350220	2.835360

567.000000	0.346080	2.849370

568.000000	0.342030	2.863330

569.000000	0.338060	2.877240

570.000000	0.334160	2.891110

571.000000	0.330330	2.904930

572.000000	0.326580	2.918700

573.000000	0.322900	2.932430

574.000000	0.319280	2.946120

575.000000	0.315730	2.959750

576.000000	0.312250	2.973350

577.000000	0.308830	2.986890

578.000000	0.305470	3.000400

579.000000	0.302180	3.013860

580.000000	0.298940	3.027270

581.000000	0.295760	3.040650

582.000000	0.292630	3.053980

583.000000	0.289560	3.067260

584.000000	0.286540	3.080510

585.000000	0.283580	3.093710

586.000000	0.280670	3.106870

587.000000	0.277800	3.119990

588.000000	0.274990	3.133070

589.000000	0.272220	3.146110

590.000000	0.269490	3.159110

591.000000	0.266820	3.172070

592.000000	0.264180	3.184990

593.000000	0.261590	3.197870

594.000000	0.259050	3.210720

595.000000	0.256540	3.223520

596.000000	0.254070	3.236290

597.000000	0.251650	3.249020

598.000000	0.249260	3.261720

599.000000	0.246910	3.274370

600.000000	0.244600	3.286990

601.000000	0.242320	3.299580

602.000000	0.240080	3.312130

603.000000	0.237870	3.324650

604.000000	0.235690	3.337130

605.000000	0.233550	3.349570

606.000000	0.231440	3.361990

607.000000	0.229370	3.374360

608.000000	0.227320	3.386710

609.000000	0.225310	3.399020

610.000000	0.223320	3.411300

611.000000	0.221360	3.423550

612.000000	0.219440	3.435770

613.000000	0.217540	3.447950

614.000000	0.215660	3.460110

615.000000	0.213820	3.472230

616.000000	0.212000	3.484330

617.000000	0.210210	3.496390

618.000000	0.208440	3.508420

619.000000	0.206690	3.520420

620.000000	0.204980	3.532400

621.000000	0.203280	3.544340

622.000000	0.201610	3.556260

623.000000	0.199960	3.568150

624.000000	0.198330	3.580010

625.000000	0.196730	3.591840

626.000000	0.195150	3.603650

627.000000	0.193580	3.615430

628.000000	0.192040	3.627180

629.000000	0.190520	3.638910

630.000000	0.189020	3.650610

631.000000	0.187540	3.662280

632.000000	0.186080	3.673930

633.000000	0.184640	3.685550

634.000000	0.183210	3.697150

635.000000	0.181810	3.708720

636.000000	0.180420	3.720270

637.000000	0.179050	3.731790

638.000000	0.177700	3.743290

639.000000	0.176360	3.754760

640.000000	0.175050	3.766210

641.000000	0.173740	3.777640

642.000000	0.172460	3.789050

643.000000	0.171190	3.800430

644.000000	0.169930	3.811790

645.000000	0.168690	3.823130

646.000000	0.167470	3.834440

647.000000	0.166260	3.845740

648.000000	0.165060	3.857010

649.000000	0.163880	3.868260

650.000000	0.162720	3.879480

651.000000	0.161560	3.890690

652.000000	0.160430	3.901880

653.000000	0.159300	3.913040

654.000000	0.158190	3.924190

655.000000	0.157090	3.935310

656.000000	0.156000	3.946420

657.000000	0.154930	3.957500

658.000000	0.153870	3.968570

659.000000	0.152820	3.979620

660.000000	0.151780	3.990640

661.000000	0.150750	4.001650

662.000000	0.149740	4.012640

663.000000	0.148730	4.023610

664.000000	0.147740	4.034560

665.000000	0.146760	4.045490

666.000000	0.145790	4.056410

667.000000	0.144830	4.067300

668.000000	0.143880	4.078180

669.000000	0.142940	4.089040

670.000000	0.142010	4.099890

671.000000	0.141100	4.110710

672.000000	0.140190	4.121520

673.000000	0.139290	4.132320

674.000000	0.138400	4.143090

675.000000	0.137520	4.153850

676.000000	0.136650	4.164590

677.000000	0.135790	4.175320

678.000000	0.134940	4.186030

679.000000	0.134090	4.196720

680.000000	0.133260	4.207400

681.000000	0.132430	4.218060

682.000000	0.131620	4.228700

683.000000	0.130810	4.239330

684.000000	0.130010	4.249950

685.000000	0.129210	4.260550

686.000000	0.128430	4.271130

687.000000	0.127650	4.281700

688.000000	0.126880	4.292260

689.000000	0.126120	4.302800

690.000000	0.125370	4.313330

691.000000	0.124620	4.323840

692.000000	0.123890	4.334330

693.000000	0.123150	4.344820

694.000000	0.122430	4.355280

695.000000	0.121710	4.365740

696.000000	0.121000	4.376180

697.000000	0.120300	4.386610

698.000000	0.119600	4.397020

699.000000	0.118910	4.407420

700.000000	0.118230	4.417810

701.000000	0.117560	4.428180

702.000000	0.116890	4.438540

703.000000	0.116220	4.448890

704.000000	0.115560	4.459230

705.000000	0.114910	4.469550

706.000000	0.114270	4.479860

707.000000	0.113630	4.490150

708.000000	0.113000	4.500440

709.000000	0.112370	4.510710

710.000000	0.111750	4.520970

711.000000	0.111130	4.531220

712.000000	0.110520	4.541450

713.000000	0.109920	4.551680

714.000000	0.109320	4.561890

715.000000	0.108720	4.572090

716.000000	0.108140	4.582280

717.000000	0.107550	4.592460

718.000000	0.106980	4.602620

719.000000	0.106400	4.612770

720.000000	0.105840	4.622920

721.000000	0.105270	4.633050

722.000000	0.104720	4.643170

723.000000	0.104160	4.653280

724.000000	0.103620	4.663380

725.000000	0.103070	4.673470

726.000000	0.102540	4.683540

727.000000	0.102000	4.693610

728.000000	0.101470	4.703670

729.000000	0.100950	4.713710

730.000000	0.100430	4.723750

731.000000	0.099910	4.733770

732.000000	0.099400	4.743790

733.000000	0.098900	4.753790

734.000000	0.098390	4.763780

735.000000	0.097900	4.773770

736.000000	0.097400	4.783740

737.000000	0.096910	4.793710

738.000000	0.096430	4.803660

739.000000	0.095950	4.813610

740.000000	0.095470	4.823540

741.000000	0.094990	4.833470

742.000000	0.094530	4.843380

743.000000	0.094060	4.853290

744.000000	0.093600	4.863190

745.000000	0.093140	4.873080

746.000000	0.092680	4.882960

747.000000	0.092230	4.892830

748.000000	0.091790	4.902690

749.000000	0.091340	4.912540

750.000000	0.090900	4.922380

751.000000	0.090470	4.932220

752.000000	0.090030	4.942040

753.000000	0.089600	4.951860

754.000000	0.089180	4.961670

755.000000	0.088760	4.971470

756.000000	0.088340	4.981260

757.000000	0.087920	4.991040

758.000000	0.087510	5.000820

759.000000	0.087100	5.010580

760.000000	0.086690	5.020340

761.000000	0.086290	5.030090

762.000000	0.085890	5.039830

763.000000	0.085490	5.049560

764.000000	0.085100	5.059290

765.000000	0.084710	5.069000

766.000000	0.084320	5.078710

767.000000	0.083930	5.088410

768.000000	0.083550	5.098110

769.000000	0.083170	5.107790

770.000000	0.082800	5.117470

771.000000	0.082420	5.127140

772.000000	0.082050	5.136800

773.000000	0.081680	5.146460

774.000000	0.081320	5.156110

775.000000	0.080960	5.165750

776.000000	0.080600	5.175380

777.000000	0.080240	5.185000

778.000000	0.079890	5.194620

779.000000	0.079530	5.204230

780.000000	0.079180	5.213840

781.000000	0.078840	5.223430

782.000000	0.078490	5.233020

783.000000	0.078150	5.242600

784.000000	0.077810	5.252180

785.000000	0.077480	5.261750

786.000000	0.077140	5.271310

787.000000	0.076810	5.280860

788.000000	0.076480	5.290410

789.000000	0.076150	5.299950

790.000000	0.075830	5.309490

791.000000	0.075510	5.319010

792.000000	0.075190	5.328530

793.000000	0.074870	5.338050

794.000000	0.074550	5.347560

795.000000	0.074240	5.357060

796.000000	0.073930	5.366550

797.000000	0.073620	5.376040

798.000000	0.073310	5.385520

799.000000	0.073010	5.395000

800.000000	0.072700	5.404470

801.000000	0.072400	5.413930

802.000000	0.072110	5.423390

803.000000	0.071810	5.432840

804.000000	0.071510	5.442280

805.000000	0.071220	5.451720

806.000000	0.070930	5.461150

807.000000	0.070640	5.470580

808.000000	0.070360	5.480000

809.000000	0.070070	5.489410

810.000000	0.069790	5.498820

811.000000	0.069510	5.508230

812.000000	0.069230	5.517620

813.000000	0.068950	5.527010

814.000000	0.068680	5.536400

815.000000	0.068400	5.545780

816.000000	0.068130	5.555150

817.000000	0.067860	5.564520

818.000000	0.067600	5.573880

819.000000	0.067330	5.583240

820.000000	0.067070	5.592590

