# blue color filter
# wavelength(nm)  n  k
3.80000e+02	1.60000e+00	4.28740e-02
3.85000e+02	1.60000e+00	3.12333e-02
3.90000e+02	1.60000e+00	2.36191e-02
3.95000e+02	1.60000e+00	1.83067e-02
4.00000e+02	1.60000e+00	1.34593e-02
4.05000e+02	1.60000e+00	1.10755e-02
4.10000e+02	1.60000e+00	9.90701e-03
4.15000e+02	1.60000e+00	9.42974e-03
4.20000e+02	1.60000e+00	8.85359e-03
4.25000e+02	1.60000e+00	7.12903e-03
4.30000e+02	1.60000e+00	5.96692e-03
4.35000e+02	1.60000e+00	5.18151e-03
4.40000e+02	1.60000e+00	4.49859e-03
4.45000e+02	1.60000e+00	3.94979e-03
4.50000e+02	1.60000e+00	3.82086e-03
4.55000e+02	1.60000e+00	3.78462e-03
4.60000e+02	1.60000e+00	3.68137e-03
4.65000e+02	1.60000e+00	3.49080e-03
4.70000e+02	1.60000e+00	3.47472e-03
4.75000e+02	1.60000e+00	3.56097e-03
4.80000e+02	1.60000e+00	3.71985e-03
4.85000e+02	1.60000e+00	4.17171e-03
4.90000e+02	1.60000e+00	5.07000e-03
4.95000e+02	1.60000e+00	6.82073e-03
5.00000e+02	1.60000e+00	8.11533e-03
5.05000e+02	1.60000e+00	9.43911e-03
5.10000e+02	1.60000e+00	1.16629e-02
5.15000e+02	1.60000e+00	1.41338e-02
5.20000e+02	1.60000e+00	1.69032e-02
5.25000e+02	1.60000e+00	2.05036e-02
5.30000e+02	1.60000e+00	2.62890e-02
5.35000e+02	1.60000e+00	3.13274e-02
5.40000e+02	1.60000e+00	3.75494e-02
5.45000e+02	1.60000e+00	4.56280e-02
5.50000e+02	1.60000e+00	5.39796e-02
5.55000e+02	1.60000e+00	6.63480e-02
5.60000e+02	1.60000e+00	8.10626e-02
5.65000e+02	1.60000e+00	9.35729e-02
5.70000e+02	1.60000e+00	1.07267e-01
5.75000e+02	1.60000e+00	1.26172e-01
5.80000e+02	1.60000e+00	1.45294e-01
5.85000e+02	1.60000e+00	1.65076e-01
5.90000e+02	1.60000e+00	1.72255e-01
5.95000e+02	1.60000e+00	1.75655e-01
6.00000e+02	1.60000e+00	1.87658e-01
6.05000e+02	1.60000e+00	2.07001e-01
6.10000e+02	1.60000e+00	2.07017e-01
6.15000e+02	1.60000e+00	2.05607e-01
6.20000e+02	1.60000e+00	2.04371e-01
6.25000e+02	1.60000e+00	2.04571e-01
6.30000e+02	1.60000e+00	2.09721e-01
6.35000e+02	1.60000e+00	2.15300e-01
6.40000e+02	1.60000e+00	2.08451e-01
6.45000e+02	1.60000e+00	1.98014e-01
6.50000e+02	1.60000e+00	1.89000e-01
6.55000e+02	1.60000e+00	1.83435e-01
6.60000e+02	1.60000e+00	1.80212e-01
6.65000e+02	1.60000e+00	1.73447e-01
6.70000e+02	1.60000e+00	1.65004e-01
6.75000e+02	1.60000e+00	1.64745e-01
6.80000e+02	1.60000e+00	1.67792e-01
6.85000e+02	1.60000e+00	1.68752e-01
6.90000e+02	1.60000e+00	1.65173e-01
6.95000e+02	1.60000e+00	1.65174e-01
7.00000e+02	1.60000e+00	1.65824e-01
7.05000e+02	1.60000e+00	1.68268e-01
7.10000e+02	1.60000e+00	1.71066e-01
7.15000e+02	1.60000e+00	1.71314e-01
7.20000e+02	1.60000e+00	1.73890e-01
7.25000e+02	1.60000e+00	1.80527e-01
7.30000e+02	1.60000e+00	1.82272e-01
7.35000e+02	1.60000e+00	1.82150e-01
7.40000e+02	1.60000e+00	1.83714e-01
7.45000e+02	1.60000e+00	1.93504e-01
7.50000e+02	1.60000e+00	1.92799e-01
7.55000e+02	1.60000e+00	1.89034e-01
7.60000e+02	1.60000e+00	1.86413e-01
7.65000e+02	1.60000e+00	1.81237e-01
7.70000e+02	1.60000e+00	1.68658e-01
7.75000e+02	1.60000e+00	1.46843e-01
7.80000e+02	1.60000e+00	1.31138e-01
