# setfos n&k file for dye-sensitized TiO2 hopefully similar to that used in
# Wenger et al.: Fabrication and performance (...), APL 94, 2009
# Column format: wavelength [nm],	n,	k
350.0	2.09	0.023
355.0	2.07	0.025
360.0	2.06	0.028
365.0	2.05	0.023
370.0	2.03	0.023
375.0	2.02	0.023
380.0	2.01	0.022
390.0	2.0	0.02
395.0	1.99	0.019
400.0	1.98	0.017
405.0	1.97	0.016
410.0	1.96	0.015
420.0	1.95	0.014
435.0	1.93	0.013
450.0	1.92	0.012
475.0	1.9	0.013
490.0	1.89	0.014
495.0	1.89	0.015
500.0	1.88	0.016
525.0	1.87	0.017
535.0	1.87	0.016
540.0	1.86	0.015
545.0	1.86	0.014
550.0	1.86	0.012
555.0	1.86	0.011
560.0	1.86	0.01
565.0	1.86	0.009
570.0	1.85	0.008
580.0	1.85	0.007
585.0	1.85	0.006
600.0	1.85	0.005
620.0	1.84	0.004
645.0	1.84	0.003
685.0	1.83	0.002
705.0	1.83	0.001
730.0	1.83	0.0
735.0	1.83	0.0
740.0	1.82	0.0
745.0	1.82	0.0
750.0	1.82	0.0
755.0	1.82	0.0
760.0	1.82	0.0
765.0	1.82	0.0
770.0	1.82	0.0
775.0	1.82	0.0
780.0	1.82	0.0
785.0	1.82	0.0
790.0	1.82	0.0
795.0	1.82	0.0
800.0	1.82	0.0
805.0	1.82	0.0
810.0	1.82	0.0
815.0	1.82	0.0
820.0	1.82	0.0
825.0	1.82	0.0
830.0	1.82	0.0
835.0	1.82	0.0
840.0	1.82	0.0
845.0	1.82	0.0
850.0	1.82	0.0
855.0	1.82	0.0
860.0	1.82	0.0
865.0	1.82	0.0
870.0	1.82	0.0
875.0	1.82	0.0
880.0	1.82	0.0
885.0	1.82	0.0
890.0	1.82	0.0
895.0	1.82	0.0
900.0	1.82	0.0
905.0	1.82	0.0
910.0	1.81	0.0
915.0	1.81	0.0
920.0	1.81	0.0
925.0	1.81	0.0
930.0	1.81	0.0
935.0	1.81	0.0
940.0	1.81	0.0
945.0	1.81	0.0
950.0	1.81	0.0
955.0	1.81	0.0
960.0	1.81	0.0
965.0	1.81	0.0
970.0	1.81	0.0
975.0	1.81	0.0
980.0	1.81	0.0
985.0	1.81	0.0
990.0	1.81	0.0
995.0	1.81	0.0
1000.0	1.81	0.0
1005.0	1.81	0.0
1010.0	1.81	0.0
1015.0	1.81	0.0
1020.0	1.81	0.0
1025.0	1.81	0.0
1030.0	1.81	0.0
1035.0	1.81	0.0
1040.0	1.81	0.0
1045.0	1.81	0.0
1050.0	1.81	0.0
1055.0	1.81	0.0
1060.0	1.81	0.0
1065.0	1.81	0.0
1070.0	1.81	0.0
1075.0	1.81	0.0
1080.0	1.81	0.0
1085.0	1.81	0.0
1090.0	1.81	0.0
1095.0	1.81	0.0
1100.0	1.81	0.0
1105.0	1.81	0.0
1110.0	1.81	0.0
1115.0	1.81	0.0
1120.0	1.81	0.0
1125.0	1.81	0.0
1130.0	1.81	0.0
1135.0	1.81	0.0
1140.0	1.81	0.0
1145.0	1.81	0.0
1150.0	1.81	0.0
1155.0	1.81	0.0
1160.0	1.81	0.0
1165.0	1.81	0.0
1170.0	1.81	0.0
1175.0	1.81	0.0
1180.0	1.81	0.0
1185.0	1.81	0.0
1190.0	1.81	0.0
1195.0	1.81	0.0
1200.0	1.81	0.0
1205.0	1.81	0.0
1210.0	1.81	0.0
1215.0	1.81	0.0
1220.0	1.81	0.0
1225.0	1.81	0.0
1230.0	1.81	0.0
1235.0	1.81	0.0
1240.0	1.81	0.0
1245.0	1.81	0.0
1250.0	1.81	0.0
1255.0	1.81	0.0
1260.0	1.81	0.0
1265.0	1.81	0.0
1270.0	1.81	0.0
1275.0	1.81	0.0
1280.0	1.81	0.0
1285.0	1.81	0.0
1290.0	1.81	0.0
1295.0	1.81	0.0
1300.0	1.81	0.0
1305.0	1.81	0.0
1310.0	1.81	0.0
1315.0	1.81	0.0
1320.0	1.81	0.0
1325.0	1.81	0.0
1330.0	1.81	0.0
1335.0	1.81	0.0
1340.0	1.81	0.0
1345.0	1.81	0.0
1350.0	1.81	0.0
1355.0	1.81	0.0
1360.0	1.81	0.0
1365.0	1.81	0.0
1370.0	1.81	0.0
1375.0	1.81	0.0
1380.0	1.81	0.0
1385.0	1.81	0.0
1390.0	1.81	0.0
1395.0	1.81	0.0
1400.0	1.81	0.0

